Folder: Thermal_Conductivity_CBF

File: Thermal_Conductivtiy_CBF.csv
SN,Sample Designation,Cast Density [kg/m3],Water / Cement Ratio,% of Pozzolain,Porosity,Moisture %,Hydration Day,Thermal Conductivity of CBF
1,RF,800,0.69,0,53.5,9.23,60,0.245
4,RF,800,0.69,0,53.5,9.23,60,0.245
7,RF,600,0.69,0,65.77,7.24,60,0.159
10,RF,600,0.69,0,65.77,7.24,60,0.16
13,RF,400,0.69,0,79.6,5.93,60,0.099
16,RF,400,0.69,0,79.6,5.93,60,0.098
19,FA10%,800,0.69,0.1,62.2,9.8,60,0.245
22,FA10%,800,0.69,0.1,62.2,9.8,60,0.236
25,FA10%,600,0.69,0.1,71.4,8.36,60,0.159
28,FA10%,600,0.69,0.1,71.4,8.36,60,0.167
31,FA10%,400,0.69,0.1,80,7.06,60,0.106
34,FA10%,400,0.69,0.1,80,7.06,60,0.107
37,FA20%,800,0.69,0.2,67.7,9.71,60,0.226
40,FA20%,800,0.69,0.2,67.7,9.71,60,0.225
43,FA20%,600,0.69,0.2,73.5,8.02,60,0.152
46,FA20%,600,0.69,0.2,73.5,8.02,60,0.154
49,FA20%,400,0.69,0.2,82.2,6.21,60,0.09
52,FA20%,400,0.69,0.2,82.2,6.21,60,0.09
55,SF10%,800,0.69,0.1,66.19,11.26,60,0.213
58,SF10%,800,0.69,0.1,66.19,11.26,60,0.218
61,SF10%,600,0.69,0.1,74.53,9.48,60,0.143
64,SF10%,600,0.69,0.1,74.53,9.48,60,0.137
67,SF10%,400,0.69,0.1,84.1,8.2,60,0.098
70,SF10%,400,0.69,0.1,84.1,8.2,60,0.094
73,SF20%,800,0.69,0.2,55.2,9.75,60,0.193
76,SF20%,800,0.69,0.2,55.2,9.75,60,0.206
79,SF20%,600,0.69,0.2,69.14,5.5,60,0.121
82,SF20%,600,0.69,0.2,69.14,5.5,60,0.121
85,SF20%,400,0.69,0.2,77.42,3.95,60,0.092
88,SF20%,400,0.69,0.2,77.42,3.95,60,0.088
91,MK10%,800,0.69,0.1,62.84,9.79,60,0.239
94,MK10%,800,0.69,0.1,62.84,9.79,60,0.233
97,MK10%,600,0.69,0.1,71.19,8.79,60,0.154
100,MK10%,600,0.69,0.1,71.19,8.79,60,0.15
103,MK10%,400,0.69,0.1,80,7.9,60,0.094
106,MK10%,400,0.69,0.1,80,7.9,60,0.093
109,MK20%,800,0.69,0.2,64.06,11.97,60,0.262
112,MK20%,800,0.69,0.2,64.06,11.97,60,0.265
115,MK20%,600,0.69,0.2,73.44,9.54,60,0.157
118,MK20%,600,0.69,0.2,73.44,9.54,60,0.176
121,MK20%,400,0.69,0.2,83.08,8.2,60,0.096
124,MK20%,400,0.69,0.2,83.08,8.2,60,0.097
127,RF,800,0.69,0,53.5,8.9,120,0.221
130,RF,800,0.69,0,53.5,8.9,120,0.237
133,RF,600,0.69,0,65.77,6.76,120,0.149
136,RF,600,0.69,0,65.77,6.76,120,0.144
139,RF,400,0.69,0,79.6,5.81,120,0.093
142,RF,400,0.69,0,79.6,5.81,120,0.092
145,FA10%,800,0.69,0.1,62.2,9.49,120,0.227
148,FA10%,800,0.69,0.1,62.2,9.49,120,0.209
151,FA10%,600,0.69,0.1,71.4,8.15,120,0.156
154,FA10%,600,0.69,0.1,71.4,8.15,120,0.158
157,FA10%,400,0.69,0.1,80,6.45,120,0.105
160,FA10%,400,0.69,0.1,80,6.45,120,0.099
163,FA20%,800,0.69,0.2,67.7,8.97,120,0.215
166,FA20%,800,0.69,0.2,67.7,8.97,120,0.228
169,FA20%,600,0.69,0.2,73.5,7.08,120,0.143
172,FA20%,600,0.69,0.2,73.5,7.08,120,0.147
175,FA20%,400,0.69,0.2,82.2,5.93,120,0.075
178,FA20%,400,0.69,0.2,82.2,5.93,120,0.08
181,SF10%,800,0.69,0.1,66.19,10.9,120,0.181
184,SF10%,800,0.69,0.1,66.19,10.9,120,0.194
187,SF10%,600,0.69,0.1,74.53,8.57,120,0.136
190,SF10%,600,0.69,0.1,74.53,8.57,120,0.123
193,SF10%,400,0.69,0.1,84.1,7.19,120,0.088
196,SF10%,400,0.69,0.1,84.1,7.19,120,0.089
199,SF20%,800,0.69,0.2,55.2,8.95,120,0.184
202,SF20%,800,0.69,0.2,55.2,8.95,120,0.192
205,SF20%,600,0.69,0.2,69.14,4.04,120,0.115
208,SF20%,600,0.69,0.2,69.14,4.04,120,0.117
211,SF20%,400,0.69,0.2,77.42,3.57,120,0.079
214,SF20%,400,0.69,0.2,77.42,3.57,120,0.08
217,MK10%,800,0.69,0.1,62.84,9.15,120,0.221
220,MK10%,800,0.69,0.1,62.84,9.15,120,0.2
223,MK10%,600,0.69,0.1,71.19,8.04,120,0.139
226,MK10%,600,0.69,0.1,71.19,8.04,120,0.137
229,MK10%,400,0.69,0.1,80,7.45,120,0.081
232,MK10%,400,0.69,0.1,80,7.45,120,0.081
235,MK20%,800,0.69,0.2,64.06,11.4,120,0.226
238,MK20%,800,0.69,0.2,64.06,11.4,120,0.224
241,MK20%,600,0.69,0.2,73.44,8.81,120,0.134
244,MK20%,600,0.69,0.2,73.44,8.81,120,0.138
247,MK20%,400,0.69,0.2,83.08,8.04,120,0.082
250,MK20%,400,0.69,0.2,83.08,8.04,120,0.084
253,RF,800,0.69,0,53.5,3.74,210,0.198
256,RF,800,0.69,0,53.5,3.74,210,0.193
259,RF,600,0.69,0,65.77,3.42,210,0.136
262,RF,600,0.69,0,65.77,3.42,210,0.132
265,RF,400,0.69,0,79.6,3.25,210,0.078
268,RF,400,0.69,0,79.6,3.25,210,0.082
271,FA10%,800,0.69,0.1,62.2,3.96,210,0.189
274,FA10%,800,0.69,0.1,62.2,3.96,210,0.163
277,FA10%,600,0.69,0.1,71.4,3.24,210,0.137
280,FA10%,600,0.69,0.1,71.4,3.24,210,0.143
283,FA10%,400,0.69,0.1,80,2.87,210,0.088
286,FA10%,400,0.69,0.1,80,2.87,210,0.084
289,FA20%,800,0.69,0.2,67.7,3.5,210,0.184
292,FA20%,800,0.69,0.2,67.7,3.5,210,0.184
295,FA20%,600,0.69,0.2,73.5,3.17,210,0.129
298,FA20%,600,0.69,0.2,73.5,3.17,210,0.132
301,FA20%,400,0.69,0.2,82.2,2.64,210,0.076
304,FA20%,400,0.69,0.2,82.2,2.64,210,0.078
307,SF10%,800,0.69,0.1,66.19,4.2,210,0.166
310,SF10%,800,0.69,0.1,66.19,4.2,210,0.173
313,SF10%,600,0.69,0.1,74.53,3.23,210,0.117
316,SF10%,600,0.69,0.1,74.53,3.23,210,0.115
319,SF10%,400,0.69,0.1,84.1,2.92,210,0.077
322,SF10%,400,0.69,0.1,84.1,2.92,210,0.079
325,SF20%,800,0.69,0.2,55.2,4.17,210,0.16
328,SF20%,800,0.69,0.2,55.2,4.17,210,0.166
331,SF20%,600,0.69,0.2,69.14,2.9,210,0.101
334,SF20%,600,0.69,0.2,69.14,2.9,210,0.103
337,SF20%,400,0.69,0.2,77.42,2.51,210,0.07
340,SF20%,400,0.69,0.2,77.42,2.51,210,0.072
343,MK10%,800,0.69,0.1,62.84,3.99,210,0.184
346,MK10%,800,0.69,0.1,62.84,3.99,210,0.176
349,MK10%,600,0.69,0.1,71.19,3.6,210,0.116
352,MK10%,600,0.69,0.1,71.19,3.6,210,0.127
355,MK10%,400,0.69,0.1,80,3.5,210,0.076
358,MK10%,400,0.69,0.1,80,3.5,210,0.073
361,MK20%,800,0.69,0.2,64.06,4.06,210,0.179
364,MK20%,800,0.69,0.2,64.06,4.06,210,0.175
367,MK20%,600,0.69,0.2,73.44,3.86,210,0.118
370,MK20%,600,0.69,0.2,73.44,3.86,210,0.124
373,MK20%,400,0.69,0.2,83.08,3.6,210,0.078
376,MK20%,400,0.69,0.2,83.08,3.6,210,0.078
379,RF,800,0.69,0,53.5,3.41,300,0.181
382,RF,800,0.69,0,53.5,3.41,300,0.19
385,RF,600,0.69,0,65.77,3.14,300,0.129
388,RF,600,0.69,0,65.77,3.14,300,0.122
391,RF,400,0.69,0,79.6,2.75,300,0.073
394,RF,400,0.69,0,79.6,2.75,300,0.079
397,FA10%,800,0.69,0.1,62.2,2.21,300,0.186
400,FA10%,800,0.69,0.1,62.2,2.21,300,0.176
403,FA10%,600,0.69,0.1,71.4,1.92,300,0.137
406,FA10%,600,0.69,0.1,71.4,1.92,300,0.128
409,FA10%,400,0.69,0.1,80,0.83,300,0.081
412,FA10%,400,0.69,0.1,80,0.83,300,0.076
415,FA20%,800,0.69,0.2,67.7,1.99,300,0.186
418,FA20%,800,0.69,0.2,67.7,1.99,300,0.175
421,FA20%,600,0.69,0.2,73.5,1.61,300,0.122
424,FA20%,600,0.69,0.2,73.5,1.61,300,0.122
427,FA20%,400,0.69,0.2,82.2,0.89,300,0.073
430,FA20%,400,0.69,0.2,82.2,0.89,300,0.076
433,SF10%,800,0.69,0.1,66.19,1.54,300,0.169
436,SF10%,800,0.69,0.1,66.19,1.54,300,0.171
439,SF10%,600,0.69,0.1,74.53,1.39,300,0.117
442,SF10%,600,0.69,0.1,74.53,1.39,300,0.115
445,SF10%,400,0.69,0.1,84.1,1.09,300,0.078
448,SF10%,400,0.69,0.1,84.1,1.09,300,0.08
451,SF20%,800,0.69,0.2,55.2,1.38,300,0.162
454,SF20%,800,0.69,0.2,55.2,1.38,300,0.176
457,SF20%,600,0.69,0.2,69.14,1.17,300,0.101
460,SF20%,600,0.69,0.2,69.14,1.17,300,0.102
463,SF20%,400,0.69,0.2,77.42,0.83,300,0.068
466,SF20%,400,0.69,0.2,77.42,0.83,300,0.073
469,MK10%,800,0.69,0.1,62.84,4.05,300,0.175
472,MK10%,800,0.69,0.1,62.84,4.05,300,0.172
475,MK10%,600,0.69,0.1,71.19,3.52,300,0.121
478,MK10%,600,0.69,0.1,71.19,3.52,300,0.116
481,MK10%,400,0.69,0.1,80,3.49,300,0.076
484,MK10%,400,0.69,0.1,80,3.49,300,0.075
487,MK20%,800,0.69,0.2,64.06,4,300,0.174
490,MK20%,800,0.69,0.2,64.06,4,300,0.181
493,MK20%,600,0.69,0.2,73.44,3.6,300,0.118
496,MK20%,600,0.69,0.2,73.44,3.6,300,0.122
499,MK20%,400,0.69,0.2,83.08,3.54,300,0.072
502,MK20%,400,0.69,0.2,83.08,3.54,300,0.075
504,MK20%,400,0.69,0.2,83.08,3.54,300,0.075